Folder: SMA-REACT/documentation/exampledata (part 2)

File: SMA anode bar boeing2.txt
Filename:	C:\Program Files\Pyris\Data\Mingear\2022\SMA anode bar boeing2.dcd
Operator ID:	mingear
Sample ID:	SMA anode bar
Comment:
Serial Number:
Data Collected:	1/20/2022 10:20:28 AM
Sample Weight:	58.300 mg
Display Weight:	58.300
Validation
Validated:	No
By:
Date:
Calibration Information
Filename:	C:\Program Files\Pyris\Calibrations\Indium 28Apr2017.dcc
Date/Time:
Initial Conditions
Temperature:	 40.00 °C
Y Initial:	20.00 mW
Sample Rate:	Standard
Baseline Filename:	C:\Program Files\Pyris\Data\Mingear\backgroundmizuki_2.dcd
End Condition:	Go To:	40.00°C
Total Points in Run:	5400
Method Steps:
Pre-Run Actions
Start the Run
	Action occurs Immediately
Switch the Gas to Nitrogen at 20.0 ml/min
	Action occurs Immediately
1)	Hold for 1.0 min at 40.00°C

2)	Heat from 40.00°C to 150.00°C at 10.00°C/min

3)	Hold for 2.0 min at 150.00°C

4)	Cool from 150.00°C to -20.00°C at 10.00°C/min

5)	Hold for 2.0 min at -20.00°C

6)	Heat from -20.00°C to 150.00°C at 10.00°C/min

7)	Hold for 2.0 min at 150.00°C

8)	Cool from 150.00°C to -20.00°C at 10.00°C/min

9)	Hold for 2.0 min at -20.00°C

10)	Heat from -20.00°C to 150.00°C at 10.00°C/min

11)	Hold for 2.0 min at 150.00°C

1) DSC Isothermal
	Time     	Unsubtracted	Baseline     	Program     	Sample     	Approx.
	          	Heat Flow     	Heat Flow     	Temperature	Temperature	Gas Flow
	0.000000	19.9971	0.000000	40	40.538	0.000000
	0.016667	19.995	0.000000	40	40.534	0.000000
	0.033333	19.9942	0.000000	40	40.53	0.000000
	0.050000	19.9915	0.000000	40	40.527	0.000000
	0.066667	19.9884	0.000000	40	40.524	0.000000
	0.083333	19.9937	0.000000	40	40.52	0.000000
	0.100000	19.991	0.000000	40	40.515	0.000000
	0.116667	19.988	0.000000	40	40.511	0.000000
	0.133333	19.988	0.000000	40	40.508	0.000000
	0.150000	19.9841	0.000000	40	40.504	0.000000
	0.166667	19.9837	0.000000	40	40.501	0.000000
	0.183333	19.983	0.000000	40	40.496	0.000000
	0.200000	19.9803	0.000000	40	40.494	0.000000
	0.216667	19.9744	0.000000	40	40.49	0.000000
	0.233333	19.9705	0.000000	40	40.487	0.000000
	0.250000	19.9673	0.000000	40	40.483	0.000000
	0.266667	19.9667	0.000000	40	40.478	0.000000
	0.283333	19.9671	0.000000	40	40.473	0.000000
	0.300000	19.967	0.000000	40	40.468	0.000000
	0.316667	19.9593	0.000000	40	40.464	0.000000
	0.333333	19.9599	0.000000	40	40.461	0.000000
	0.350000	19.9607	0.000000	40	40.456	0.000000
	0.366667	19.9593	0.000000	40	40.453	0.000000
	0.383333	19.9549	0.000000	40	40.449	0.000000
	0.400000	19.9543	0.000000	40	40.445	0.000000
	0.416667	19.9501	0.000000	40	40.442	0.000000
	0.433333	19.9442	0.000000	40	40.438	0.000000
	0.450000	19.9404	0.000000	40	40.435	0.000000
	0.466667	19.9408	0.000000	40	40.431	0.000000
	0.483333	19.9404	0.000000	40	40.428	0.000000
	0.500000	19.937	0.000000	40	40.423	0.000000
	0.516667	19.9338	0.000000	40	40.42	0.000000
	0.533333	19.9307	0.000000	40	40.417	0.000000
	0.550000	19.9289	0.000000	40	40.413	0.000000
	0.566667	19.9285	0.000000	40	40.409	0.000000
	0.583333	19.929	0.000000	40	40.404	0.000000
	0.600000	19.926	0.000000	40	40.399	0.000000
	0.616667	19.9206	0.000000	40	40.395	0.000000
	0.633333	19.9209	0.000000	40	40.392	0.000000
	0.650000	19.9218	0.000000	40	40.387	0.000000
	0.666667	19.9185	0.000000	40	40.384	0.000000
	0.683333	19.9165	0.000000	40	40.38	0.000000
	0.700000	19.9145	0.000000	40	40.377	0.000000
	0.716667	19.9126	0.000000	40	40.373	0.000000
	0.733333	19.9097	0.000000	40	40.371	0.000000
	0.750000	19.9073	0.000000	40	40.367	0.000000
	0.766667	19.9036	0.000000	40	40.363	0.000000
	0.783333	19.9008	0.000000	40	40.359	0.000000
	0.800000	19.8992	0.000000	40	40.356	0.000000
	0.816667	19.8965	0.000000	40	40.352	0.000000
	0.833333	19.8945	0.000000	40	40.349	0.000000
	0.850000	19.8929	0.000000	40	40.346	0.000000
	0.866667	19.8945	0.000000	40	40.342	0.000000
	0.883333	19.893	0.000000	40	40.338	0.000000
	0.900000	19.8929	0.000000	40	40.336	0.000000
	0.916667	19.8931	0.000000	40	40.333	0.000000
	0.933333	19.8894	0.000000	40	40.327	0.000000
	0.950000	19.8881	0.000000	40	40.321	0.000000
	0.966667	19.8867	0.000000	40	40.318	0.000000
	0.983333	19.886	0.000000	40	40.314	0.000000
2) DSC Temperature Scan
	1.000000	19.9401	0.000000	40.004	40.31	0.000000
	1.066667	20.9577	0.451426	40.67	40.371	0.000000
	1.133333	22.018	-0.746871	41.337	40.703	0.000000
	1.200000	23.1936	-1.214697	42.004	41.213	0.000000
	1.266667	24.0153	-1.367611	42.67	41.805	0.000000
	1.333333	24.4826	-1.476987	43.337	42.431	0.000000
	1.400000	24.7344	-1.584003	44.004	43.072	0.000000
	1.466667	24.8818	-1.689485	44.67	43.72	0.000000
	1.533333	24.9621	-1.799333	45.337	44.373	0.000000
	1.600000	25.0313	-1.902101	46.004	45.028	0.000000
	1.666667	25.0893	-2.006050	46.67	45.682	0.000000
	1.733333	25.1397	-2.113302	47.337	46.337	0.000000
	1.800000	25.2096	-2.218194	48.004	46.992	0.000000
	1.866667	25.2486	-2.321434	48.67	47.646	0.000000
	1.933333	25.2909	-2.425383	49.337	48.302	0.000000
	2.000000	25.3395	-2.530983	50.004	48.956	0.000000
	2.066667	25.3891	-2.636111	50.67	49.613	0.000000
	2.133333	25.4321	-2.739823	51.337	50.268	0.000000
	2.200000	25.4811	-2.843300	52.004	50.924	0.000000
	2.266667	25.5239	-2.948664	52.67	51.58	0.000000
	2.333333	25.5671	-3.050843	53.337	52.235	0.000000
	2.400000	25.6142	-3.161634	54.004	52.893	0.000000
	2.466667	25.6605	-3.260155	54.67	53.552	0.000000
	2.533333	25.6998	-3.368233	55.337	54.209	0.000000
	2.600000	25.739	-3.471473	56.004	54.869	0.000000
	2.666667	25.7819	-3.576366	56.67	55.526	0.000000
	2.733333	25.8224	-3.679252	57.337	56.185	0.000000
	2.800000	25.8613	-3.787920	58.004	56.844	0.000000
	2.866667	25.9082	-3.893284	58.67	57.504	0.000000
	2.933333	25.9527	-4.002306	59.337	58.162	0.000000
	3.000000	25.9986	-4.104131	60.004	58.821	0.000000
	3.066667	26.0429	-4.212917	60.67	59.48	0.000000
	3.133333	26.0832	-4.316629	61.337	60.138	0.000000
	3.200000	26.1255	-4.427421	62.004	60.797	0.000000
	3.266667	26.163	-4.530543	62.67	61.456	0.000000
	3.333333	26.2058	-4.637913	63.337	62.116	0.000000
	3.400000	26.2548	-4.745047	64.004	62.777	0.000000
	3.466667	26.3056	-4.853361	64.67	63.438	0.000000
	3.533333	26.3574	-4.956366	65.337	64.099	0.000000
	3.600000	26.404	-5.064797	66.004	64.763	0.000000
	3.666667	26.4585	-5.174527	66.67	65.423	0.000000
	3.733333	26.5091	-5.286263	67.337	66.084	0.000000
	3.800000	26.5539	-5.398942	68.004	66.744	0.000000
	3.866667	26.6162	-5.510088	68.67	67.403	0.000000
	3.933333	26.6743	-5.623711	69.337	68.063	0.000000
	4.000000	26.7395	-5.739931	70.004	68.724	0.000000
	4.066667	26.8047	-5.843407	70.67	69.385	0.000000
	4.133333	26.893	-5.959036	71.337	70.044	0.000000
	4.200000	26.9486	-6.070418	72.004	70.704	0.000000
	4.266667	27.0232	-6.181800	72.67	71.367	0.000000
	4.333333	27.0776	-6.293299	73.337	72.027	0.000000
	4.400000	27.1445	-6.408811	74.004	72.688	0.000000
	4.466667	27.2163	-6.520192	74.67	73.349	0.000000
	4.533333	27.2882	-6.634288	75.337	74.011	0.000000
	4.600000	27.3354	-6.744607	76.004	74.673	0.000000
	4.666667	27.4363	-6.860591	76.67	75.334	0.000000
	4.733333	27.5469	-6.970202	77.337	75.995	0.000000
	4.800000	27.6288	-7.088899	78.004	76.655	0.000000
	4.866667	27.7105	-7.198393	78.67	77.317	0.000000
	4.933333	27.7975	-7.312253	79.337	77.979	0.000000
	5.000000	27.8734	-7.428118	80.004	78.639	0.000000
	5.066667	27.9645	-7.538556	80.67	79.3	0.000000
	5.133333	28.05	-7.654421	81.337	79.961	0.000000
[...]
	88.6833	28.5353	-22.4419	150	148.042	0.000000
	88.7	28.5364	-22.4419	150	148.043	0.000000
	88.7167	28.536	-22.4419	150	148.042	0.000000
	88.7333	28.5346	-22.4419	150	148.042	0.000000
	88.75	28.5341	-22.4419	150	148.042	0.000000
	88.7667	28.5336	-22.4419	150	148.042	0.000000
	88.7833	28.5344	-22.4419	150	148.043	0.000000
	88.8	28.5331	-22.4419	150	148.043	0.000000
	88.8167	28.5336	-22.4419	150	148.043	0.000000
	88.8333	28.5331	-22.4419	150	148.043	0.000000
	88.85	28.5336	-22.4419	150	148.042	0.000000
	88.8667	28.5346	-22.4419	150	148.042	0.000000
	88.8833	28.5341	-22.4419	150	148.042	0.000000
	88.9	28.5331	-22.4419	150	148.043	0.000000
	88.9167	28.5326	-22.4419	150	148.042	0.000000
	88.9333	28.5336	-22.4419	150	148.043	0.000000
	88.95	28.534	-22.4419	150	148.044	0.000000
	88.9667	28.5327	-22.4419	150	148.042	0.000000
	88.9833	28.5313	-22.4419	150	148.044	0.000000
	89	28.532	-22.4419	150	148.044	0.000000
	89.0167	28.5339	-22.4419	150	148.045	0.000000
	89.0333	28.5336	-22.4419	150	148.043	0.000000
	89.05	28.5326	-22.4419	150	148.043	0.000000
	89.0667	28.5354	-22.4419	150	148.042	0.000000
	89.0833	28.5362	-22.4419	150	148.043	0.000000
	89.1	28.5331	-22.4419	150	148.044	0.000000
	89.1167	28.5326	-22.4419	150	148.045	0.000000
	89.1333	28.5324	-22.4419	150	148.043	0.000000
	89.15	28.5328	-22.4419	150	148.043	0.000000
	89.1667	28.5324	-22.4419	150	148.044	0.000000
	89.1833	28.5316	-22.4419	150	148.043	0.000000
	89.2	28.5338	-22.4419	150	148.044	0.000000
	89.2167	28.5349	-22.4419	150	148.044	0.000000
	89.2333	28.5339	-22.4419	150	148.044	0.000000
	89.25	28.5337	-22.4419	150	148.043	0.000000
	89.2667	28.5328	-22.4419	150	148.043	0.000000
	89.2833	28.5351	-22.4419	150	148.043	0.000000
	89.3	28.5338	-22.4419	150	148.044	0.000000
	89.3167	28.5333	-22.4419	150	148.043	0.000000
	89.3333	28.5341	-22.4419	150	148.044	0.000000
	89.35	28.5339	-22.4419	150	148.043	0.000000
	89.3667	28.5337	-22.4419	150	148.043	0.000000
	89.3833	28.5344	-22.4419	150	148.042	0.000000
	89.4	28.534	-22.4419	150	148.042	0.000000
	89.4167	28.5338	-22.4419	150	148.043	0.000000
	89.4333	28.5339	-22.4419	150	148.044	0.000000
	89.45	28.5332	-22.4419	150	148.044	0.000000
	89.4667	28.5331	-22.4419	150	148.044	0.000000
	89.4833	28.5339	-22.4419	150	148.044	0.000000
	89.5	28.5338	-22.4419	150	148.044	0.000000
	89.5167	28.5344	-22.4419	150	148.044	0.000000
	89.5333	28.5344	-22.4419	150	148.044	0.000000
	89.55	28.5341	-22.4419	150	148.044	0.000000
	89.5667	28.5339	-22.4419	150	148.044	0.000000
	89.5833	28.5349	-22.4419	150	148.046	0.000000
	89.6	28.5357	-22.4419	150	148.045	0.000000
	89.6167	28.5352	-22.4419	150	148.044	0.000000
	89.6333	28.5344	-22.4419	150	148.044	0.000000
	89.65	28.5354	-22.4419	150	148.045	0.000000
	89.6667	28.5379	-22.4419	150	148.044	0.000000
	89.6833	28.5375	-22.4419	150	148.043	0.000000
	89.7	28.5382	-22.4419	150	148.044	0.000000
	89.7167	28.5377	-22.4419	150	148.043	0.000000
	89.7333	28.5375	-22.4419	150	148.044	0.000000
	89.75	28.5372	-22.4419	150	148.044	0.000000
	89.7667	28.5377	-22.4419	150	148.045	0.000000
	89.7833	28.5362	-22.4419	150	148.045	0.000000
	89.8	28.5372	-22.4419	150	148.045	0.000000
	89.8167	28.5377	-22.4419	150	148.044	0.000000
	89.8333	28.537	-22.4419	150	148.045	0.000000
	89.85	28.5364	-22.4419	150	148.045	0.000000
	89.8667	28.5362	-22.4419	150	148.044	0.000000
	89.8833	28.5363	-22.4419	150	148.044	0.000000
	89.9	28.5364	-22.4419	150	148.044	0.000000
	89.9167	28.5364	-22.4419	150	148.044	0.000000
	89.9333	28.537	-22.4419	150	148.043	0.000000
	89.95	28.5365	-22.4419	150	148.043	0.000000
	89.9667	28.5382	-22.4419	150	148.044	0.000000
	89.9833	28.539	-22.4419	150	148.044	0.000000