Folder: SMA-REACT/documentation/exampledata

Note: README.md
# SMAREACTcleaned
the cleaned up version of REACT as of 2023

Run with screen resolution of 1600 x 900 at 100%. To be fixed

File: SandiaSLM50_3_asispowder.txt
Filename:	C:\Program Files\Pyris\Data\Mingear\2019 SLMs\SandiaSLM50_3_asispowder.dcd
Operator ID:	Mingear
Sample ID:	SLM 50.3 as is powder
Comment: 	Al with lid
Serial Number:
Data Collected:	11/21/2019 4:26:25 PM
Sample Weight:	60.200 mg
Display Weight:	60.200
Validation
Validated:	No
By:
Date:
Calibration Information
Filename:	C:\Program Files\Pyris\Calibrations\Indium 28Apr2017.dcc
Date/Time:
Initial Conditions
Temperature:	 110.00 °C
Y Initial:	20.00 mW
Sample Rate:	Standard
Baseline Filename:	C:\Program Files\Pyris\Data\Mingear\2019 SLMs\SandiaSLM50_3_BL.dcd
End Condition:	Go To Load
Total Points in Run:	5280
Method Steps:
Pre-Run Actions
Start the Run
	Action occurs Immediately
Switch the Gas to Nitrogen at 20.0 ml/min
	Action occurs Immediately
1)	Hold for 2.0 min at 110.00°C

2)	Cool from 110.00°C to -10.00°C at 10.00°C/min

3)	Hold for 2.0 min at -10.00°C

4)	Heat from -10.00°C to 110.00°C at 10.00°C/min

5)	Hold for 2.0 min at 110.00°C

6)	Cool from 110.00°C to -10.00°C at 5.00°C/min

7)	Hold for 2.0 min at -10.00°C

8)	Heat from -10.00°C to 150.00°C at 5.00°C/min

1) DSC Isothermal
	Time     	Unsubtracted	Baseline     	Program     	Sample     	Approx.
	          	Heat Flow     	Heat Flow     	Temperature	Temperature	Gas Flow
	0.000000	16.8549	0.000000	110	94.633	0.000000
	0.016667	-36.9511	0.000000	110	97.96	0.000000
	0.033333	-84.7292	0.000000	110	100.804	0.000000
	0.050000	-111.938	0.000000	110	102.903	0.000000
	0.066667	-143.786	0.000000	110	104.362	0.000000
	0.083333	-179.03	0.000000	110	105.355	0.000000
	0.100000	-211.411	0.000000	110	106.029	0.000000
	0.116667	-238.44	0.000000	110	106.49	0.000000
	0.133333	-260.499	0.000000	110	106.809	0.000000
	0.150000	-278.507	0.000000	110	107.031	0.000000
	0.166667	-293.154	0.000000	110	107.19	0.000000
	0.183333	-304.873	0.000000	110	107.304	0.000000
	0.200000	-313.969	0.000000	110	107.388	0.000000
	0.216667	-320.836	0.000000	110	107.447	0.000000
	0.233333	-325.907	0.000000	110	107.493	0.000000
	0.250000	-329.607	0.000000	110	107.525	0.000000
	0.266667	-332.288	0.000000	110	107.548	0.000000
	0.283333	-334.235	0.000000	110	107.566	0.000000
	0.300000	-335.648	0.000000	110	107.581	0.000000
	0.316667	-336.674	0.000000	110	107.591	0.000000
	0.333333	-337.421	0.000000	110	107.599	0.000000
	0.350000	-337.969	0.000000	110	107.604	0.000000
	0.366667	-338.368	0.000000	110	107.608	0.000000
	0.383333	-338.655	0.000000	110	107.612	0.000000
	0.400000	-338.867	0.000000	110	107.614	0.000000
	0.416667	-339.022	0.000000	110	107.617	0.000000
	0.433333	-339.132	0.000000	110	107.618	0.000000
	0.450000	-339.214	0.000000	110	107.619	0.000000
	0.466667	-339.278	0.000000	110	107.62	0.000000
	0.483333	-339.324	0.000000	110	107.621	0.000000
	0.500000	-339.354	0.000000	110	107.621	0.000000
	0.516667	-339.379	0.000000	110	107.623	0.000000
	0.533333	-339.396	0.000000	110	107.623	0.000000
	0.550000	-339.409	0.000000	110	107.623	0.000000
	0.566667	-339.413	0.000000	110	107.624	0.000000
	0.583333	-339.422	0.000000	110	107.624	0.000000
	0.600000	-339.424	0.000000	110	107.625	0.000000
	0.616667	-339.427	0.000000	110	107.626	0.000000
	0.633333	-339.426	0.000000	110	107.627	0.000000
	0.650000	-339.429	0.000000	110	107.627	0.000000
	0.666667	-339.427	0.000000	110	107.627	0.000000
	0.683333	-339.426	0.000000	110	107.627	0.000000
	0.700000	-339.426	0.000000	110	107.627	0.000000
	0.716667	-339.426	0.000000	110	107.627	0.000000
	0.733333	-339.425	0.000000	110	107.626	0.000000
	0.750000	-339.427	0.000000	110	107.626	0.000000
	0.766667	-339.425	0.000000	110	107.628	0.000000
	0.783333	-339.42	0.000000	110	107.628	0.000000
	0.800000	-339.419	0.000000	110	107.628	0.000000
	0.816667	-339.417	0.000000	110	107.628	0.000000
	0.833333	-339.418	0.000000	110	107.629	0.000000
	0.850000	-339.416	0.000000	110	107.63	0.000000
	0.866667	-339.413	0.000000	110	107.63	0.000000
	0.883333	-339.412	0.000000	110	107.629	0.000000
	0.900000	-339.409	0.000000	110	107.629	0.000000
	0.916667	-339.413	0.000000	110	107.629	0.000000
	0.933333	-339.414	0.000000	110	107.629	0.000000
	0.950000	-339.411	0.000000	110	107.629	0.000000
	0.966667	-339.41	0.000000	110	107.63	0.000000
	0.983333	-339.407	0.000000	110	107.629	0.000000
	1.000000	-339.403	0.000000	110	107.63	0.000000
	1.016667	-339.404	0.000000	110	107.63	0.000000
	1.033333	-339.404	0.000000	110	107.633	0.000000
	1.050000	-339.405	0.000000	110	107.633	0.000000
	1.066667	-339.402	0.000000	110	107.632	0.000000
	1.083333	-339.398	0.000000	110	107.633	0.000000
	1.100000	-339.399	0.000000	110	107.634	0.000000
	1.116667	-339.399	0.000000	110	107.632	0.000000
	1.133333	-339.397	0.000000	110	107.633	0.000000
	1.150000	-339.395	0.000000	110	107.632	0.000000
	1.166667	-339.396	0.000000	110	107.632	0.000000
	1.183333	-339.396	0.000000	110	107.634	0.000000
	1.200000	-339.394	0.000000	110	107.634	0.000000
	1.216667	-339.394	0.000000	110	107.635	0.000000
	1.233333	-339.393	0.000000	110	107.635	0.000000
	1.250000	-339.389	0.000000	110	107.635	0.000000
	1.266667	-339.391	0.000000	110	107.636	0.000000
	1.283333	-339.392	0.000000	110	107.636	0.000000
	1.300000	-339.39	0.000000	110	107.636	0.000000
	1.316667	-339.388	0.000000	110	107.636	0.000000
	1.333333	-339.385	0.000000	110	107.636	0.000000
	1.350000	-339.388	0.000000	110	107.636	0.000000
	1.366667	-339.39	0.000000	110	107.637	0.000000
	1.383333	-339.388	0.000000	110	107.637	0.000000
	1.400000	-339.385	0.000000	110	107.637	0.000000
	1.416667	-339.384	0.000000	110	107.637	0.000000
	1.433333	-339.384	0.000000	110	107.637	0.000000
	1.450000	-339.38	0.000000	110	107.638	0.000000
	1.466667	-339.38	0.000000	110	107.637	0.000000
	1.483333	-339.383	0.000000	110	107.637	0.000000
	1.500000	-339.385	0.000000	110	107.637	0.000000
	1.516667	-339.384	0.000000	110	107.637	0.000000
	1.533333	-339.383	0.000000	110	107.638	0.000000
	1.550000	-339.381	0.000000	110	107.638	0.000000
	1.566667	-339.377	0.000000	110	107.639	0.000000
	1.583333	-339.376	0.000000	110	107.638	0.000000
	1.600000	-339.379	0.000000	110	107.638	0.000000
	1.616667	-339.38	0.000000	110	107.639	0.000000
	1.633333	-339.379	0.000000	110	107.64	0.000000
	1.650000	-339.376	0.000000	110	107.639	0.000000
	1.666667	-339.377	0.000000	110	107.639	0.000000
	1.683333	-339.377	0.000000	110	107.638	0.000000
	1.700000	-339.376	0.000000	110	107.639	0.000000
	1.716667	-339.376	0.000000	110	107.639	0.000000
	1.733333	-339.375	0.000000	110	107.639	0.000000
	1.750000	-339.374	0.000000	110	107.639	0.000000
	1.766667	-339.374	0.000000	110	107.638	0.000000
	1.783333	-339.374	0.000000	110	107.638	0.000000
	1.800000	-339.371	0.000000	110	107.639	0.000000
	1.816667	-339.371	0.000000	110	107.638	0.000000
	1.833333	-339.373	0.000000	110	107.639	0.000000
	1.850000	-339.375	0.000000	110	107.638	0.000000
	1.866667	-339.375	0.000000	110	107.639	0.000000
	1.883333	-339.375	0.000000	110	107.639	0.000000
	1.900000	-339.374	0.000000	110	107.639	0.000000
	1.916667	-339.372	0.000000	110	107.639	0.000000
	1.933333	-339.371	0.000000	110	107.64	0.000000
	1.950000	-339.371	0.000000	110	107.64	0.000000
	1.966667	-339.37	0.000000	110	107.641	0.000000
	1.983333	-339.369	0.000000	110	107.64	0.000000
2) DSC Temperature Scan
	2.000000	-339.425	0.000000	109.995	107.639	0.000000
	2.066667	-340.343	-0.295445	109.329	107.504	0.000000
	2.133333	-343.291	0.694247	108.662	107.004	0.000000
[...]
	83	-338.152	-2.717877	125.004	122.411	0.000000
	83.1667	-338.31	-2.869375	125.837	123.252	0.000000
	83.3333	-338.458	-3.018514	126.67	124.093	0.000000
	83.5	-338.608	-3.170955	127.504	124.933	0.000000
	83.6667	-338.754	-3.318796	128.337	125.773	0.000000
	83.8333	-338.908	-3.472299	129.17	126.618	0.000000
	84	-339.062	-3.623207	130.004	127.46	0.000000
	84.1667	-339.218	-3.773761	130.837	128.301	0.000000
	84.3333	-339.367	-3.928327	131.67	129.143	0.000000
	84.5	-339.521	-4.078763	132.504	129.985	0.000000
	84.6667	-339.667	-4.229081	133.337	130.828	0.000000
	84.8333	-339.823	-4.385063	134.17	131.669	0.000000
	85	-339.977	-4.537740	135.004	132.508	0.000000
	85.1667	-340.133	-4.699621	135.837	133.353	0.000000
	85.3333	-340.291	-4.847462	136.67	134.194	0.000000
	85.5	-340.434	-5.004387	137.504	135.037	0.000000
	85.6667	-340.589	-5.154469	138.337	135.879	0.000000
	85.8333	-340.751	-5.312810	139.17	136.719	0.000000
	86	-340.902	-5.464072	140.004	137.561	0.000000
	86.1667	-341.057	-5.624655	140.837	138.405	0.000000
	86.3333	-341.209	-5.780165	141.67	139.245	0.000000
	86.5	-341.369	-5.936854	142.504	140.088	0.000000
	86.6667	-341.519	-6.094488	143.337	140.93	0.000000
	86.8333	-341.682	-6.244452	144.17	141.77	0.000000
	87	-341.843	-6.400905	145.004	142.61	0.000000
	87.1667	-341.993	-6.561252	145.837	143.452	0.000000
	87.3333	-342.157	-6.724785	146.67	144.292	0.000000
	87.5	-342.312	-6.880059	147.504	145.134	0.000000
	87.6667	-342.473	-7.038872	148.337	145.975	0.000000
	87.8333	-342.63	-7.206652	149.17	146.817	0.000000
	87.9833	-342.771	-7.343402	149.92	147.575	0.000000

	TEMPERATURE CALIBRATION INPUTS:
Calibration Type:    	One-point Calibration

Reference	Expected (°C)	Measured (°C)	Method
Indium          	   156.600	   158.150	                 	Used
Zinc            	   419.470	   419.470	                 	Not Used
                	     0.000	     0.000	                 	Not Used
                	     0.000	     0.000	                 	Not Used
                	     0.000	     0.000	                 	Not Used
                	     0.000	     0.000	                 	Not Used
                	     0.000	     0.000	                 	Not Used
                	     0.000	     0.000	                 	Not Used
                	     0.000	     0.000	                 	Not Used
                	     0.000	     0.000	                 	Not Used
	MULTI-POINT VALUES:
Offsets (°C)	Slopes	Boundaries (°C)
    -1.550	     1.000	     0.000
    -1.550	     1.000	   158.660
    -1.550	     1.000	   158.660
    -1.550	     1.000	   158.660
    -1.550	     1.000	   158.660
    -1.550	     1.000	   158.660
    -1.550	     1.000	   158.660
    -1.550	     1.000	   158.660
    -1.550	     1.000	   158.660
    -1.550	     1.000	   158.660
    -1.550	     1.000	   158.660

NEWPAGE

	DSC HEAT FLOW CALIBRATION INPUTS:
Range: Low (320 mW)
Reference Material:	Indium
Expected Enthalpy:	  28.450 J/g	Measured Enthalpy:	  24.809 J/g
Weight:	   4.447 mg	Method:	IndCal

	DSC HEAT FLOW CALIBRATION COMPUTED RESULTS:
Range: Low (320 mW)
Low Range Factor	   1.180	Date:	4/28/2017 1:12:14 PM

	FURNACE CALIBRATION INPUTS:
Minimum	  50.000 °C
Maximum	 450.000 °C

	FURNACE CALIBRATION COMPUTED RESULTS:
Date:	6/20/2016 10:12:19 AM
Offset	   0.000 °C
Factor	   1.000

	PROFILE VALUES FOR THIS DATA:

Software Version	10.1.0.0412
Firmware Version	Part Number N5378059  Revision 64
Instrument Serial Number
Load Temperature	40.0 °C
Go To Temp Rate	200.0 °C/min
Maximum Allowed Temperature	600.0 °C
Helium Purge	Was Not Used
Liquid Nitrogen	Was Not Used
Data taken using the	Normal Range
Filter Factor	0
Lag Compensation	0
Cooling Device
10 Second Delay	Was Used

File: SandiaSLM50_3_asprinted_120419.txt
Filename:	C:\Program Files\Pyris\Data\Mingear\2019 SLMs\SandiaSLM50_3_asprinted_120419.dcd
Operator ID:	Mingear
Sample ID:	SLM 50.3 as printed 12.4.19
Comment: 	Al with lid
Serial Number:
Data Collected:	12/6/2019 12:14:10 PM
Sample Weight:	124.300 mg
Display Weight:	124.300
Validation
Validated:	No
By:
Date:
Calibration Information
Filename:	C:\Program Files\Pyris\Calibrations\Indium 28Apr2017.dcc
Date/Time:
Initial Conditions
Temperature:	 110.00 °C
Y Initial:	20.00 mW
Sample Rate:	Standard
Baseline Filename:	C:\Program Files\Pyris\Data\Mingear\2019 SLMs\SandiaSLM50_3_BL.dcd
End Condition:	Go To Load
Total Points in Run:	5280
Method Steps:
Pre-Run Actions
Start the Run
	Action occurs Immediately
Switch the Gas to Nitrogen at 20.0 ml/min
	Action occurs Immediately
1)	Hold for 2.0 min at 110.00°C

2)	Cool from 110.00°C to -10.00°C at 10.00°C/min

3)	Hold for 2.0 min at -10.00°C

4)	Heat from -10.00°C to 110.00°C at 10.00°C/min

5)	Hold for 2.0 min at 110.00°C

6)	Cool from 110.00°C to -10.00°C at 5.00°C/min

7)	Hold for 2.0 min at -10.00°C

8)	Heat from -10.00°C to 150.00°C at 5.00°C/min

1) DSC Isothermal
	Time     	Unsubtracted	Baseline     	Program     	Sample     	Approx.
	          	Heat Flow     	Heat Flow     	Temperature	Temperature	Gas Flow
	0.000000	20.4724	0.000000	110	94.539	0.000000
	0.016667	13.8081	0.000000	110	97.875	0.000000
	0.033333	-2.438919	0.000000	110	100.791	0.000000
	0.050000	15.3958	0.000000	110	102.958	0.000000
	0.066667	37.9905	0.000000	110	104.455	0.000000
	0.083333	52.8704	0.000000	110	105.452	0.000000
	0.100000	59.7216	0.000000	110	106.107	0.000000
	0.116667	61.0099	0.000000	110	106.537	0.000000
	0.133333	59.0822	0.000000	110	106.82	0.000000
	0.150000	55.5526	0.000000	110	107.01	0.000000
	0.166667	51.3661	0.000000	110	107.138	0.000000
	0.183333	47.058	0.000000	110	107.228	0.000000
	0.200000	42.8168	0.000000	110	107.291	0.000000
	0.216667	38.8091	0.000000	110	107.338	0.000000
	0.233333	34.9918	0.000000	110	107.371	0.000000
	0.250000	31.352	0.000000	110	107.398	0.000000
	0.266667	28.0349	0.000000	110	107.419	0.000000
	0.283333	24.864	0.000000	110	107.434	0.000000
	0.300000	21.7177	0.000000	110	107.447	0.000000
	0.316667	18.7015	0.000000	110	107.458	0.000000
	0.333333	15.7897	0.000000	110	107.469	0.000000
	0.350000	12.8671	0.000000	110	107.478	0.000000
	0.366667	10.0664	0.000000	110	107.486	0.000000
	0.383333	7.340130	0.000000	110	107.492	0.000000
	0.400000	4.824604	0.000000	110	107.498	0.000000
	0.416667	2.540454	0.000000	110	107.504	0.000000
	0.433333	0.236600	0.000000	110	107.508	0.000000
	0.450000	-1.988555	0.000000	110	107.514	0.000000
	0.466667	-4.330755	0.000000	110	107.519	0.000000
	0.483333	-6.781388	0.000000	110	107.525	0.000000
	0.500000	-9.298448	0.000000	110	107.53	0.000000
	0.516667	-11.8896	0.000000	110	107.535	0.000000
	0.533333	-14.5927	0.000000	110	107.54	0.000000
	0.550000	-17.5307	0.000000	110	107.545	0.000000
	0.566667	-20.8261	0.000000	110	107.551	0.000000
	0.583333	-24.4983	0.000000	110	107.556	0.000000
	0.600000	-28.4619	0.000000	110	107.563	0.000000
	0.616667	-32.6951	0.000000	110	107.569	0.000000
	0.633333	-37.4076	0.000000	110	107.576	0.000000
	0.650000	-42.4175	0.000000	110	107.585	0.000000
	0.666667	-47.4294	0.000000	110	107.593	0.000000
	0.683333	-52.4107	0.000000	110	107.603	0.000000
	0.700000	-57.398	0.000000	110	107.611	0.000000
	0.716667	-62.4117	0.000000	110	107.622	0.000000
	0.733333	-67.4784	0.000000	110	107.633	0.000000
	0.750000	-72.4772	0.000000	110	107.641	0.000000
	0.766667	-77.2536	0.000000	110	107.651	0.000000
	0.783333	-81.7338	0.000000	110	107.659	0.000000
	0.800000	-85.9031	0.000000	110	107.667	0.000000
	0.816667	-89.7939	0.000000	110	107.675	0.000000
	0.833333	-93.4244	0.000000	110	107.684	0.000000
	0.850000	-96.8091	0.000000	110	107.691	0.000000
	0.866667	-99.979	0.000000	110	107.699	0.000000
	0.883333	-102.938	0.000000	110	107.705	0.000000
	0.900000	-105.697	0.000000	110	107.71	0.000000
	0.916667	-108.264	0.000000	110	107.715	0.000000
	0.933333	-110.652	0.000000	110	107.72	0.000000
	0.950000	-112.861	0.000000	110	107.724	0.000000
	0.966667	-114.904	0.000000	110	107.729	0.000000
	0.983333	-116.795	0.000000	110	107.733	0.000000
	1.000000	-118.54	0.000000	110	107.738	0.000000
	1.016667	-120.152	0.000000	110	107.742	0.000000
	1.033333	-121.637	0.000000	110	107.745	0.000000
	1.050000	-123.004	0.000000	110	107.749	0.000000
	1.066667	-124.265	0.000000	110	107.751	0.000000
	1.083333	-125.431	0.000000	110	107.754	0.000000
	1.100000	-126.498	0.000000	110	107.756	0.000000
	1.116667	-127.479	0.000000	110	107.759	0.000000
	1.133333	-128.383	0.000000	110	107.761	0.000000
	1.150000	-129.213	0.000000	110	107.763	0.000000
	1.166667	-129.978	0.000000	110	107.764	0.000000
	1.183333	-130.681	0.000000	110	107.765	0.000000
	1.200000	-131.326	0.000000	110	107.766	0.000000
	1.216667	-131.917	0.000000	110	107.767	0.000000
	1.233333	-132.459	0.000000	110	107.769	0.000000
	1.250000	-132.959	0.000000	110	107.769	0.000000
	1.266667	-133.416	0.000000	110	107.77	0.000000
	1.283333	-133.836	0.000000	110	107.772	0.000000
	1.300000	-134.224	0.000000	110	107.773	0.000000
	1.316667	-134.581	0.000000	110	107.774	0.000000
	1.333333	-134.91	0.000000	110	107.774	0.000000
	1.350000	-135.21	0.000000	110	107.775	0.000000
	1.366667	-135.484	0.000000	110	107.775	0.000000
	1.383333	-135.739	0.000000	110	107.775	0.000000
	1.400000	-135.969	0.000000	110	107.777	0.000000
	1.416667	-136.18	0.000000	110	107.777	0.000000
	1.433333	-136.379	0.000000	110	107.778	0.000000
	1.450000	-136.558	0.000000	110	107.778	0.000000
	1.466667	-136.722	0.000000	110	107.779	0.000000
	1.483333	-136.871	0.000000	110	107.778	0.000000
	1.500000	-137.009	0.000000	110	107.778	0.000000
	1.516667	-137.135	0.000000	110	107.778	0.000000
	1.533333	-137.251	0.000000	110	107.778	0.000000
	1.550000	-137.358	0.000000	110	107.778	0.000000
	1.566667	-137.454	0.000000	110	107.779	0.000000
	1.583333	-137.542	0.000000	110	107.779	0.000000
	1.600000	-137.622	0.000000	110	107.779	0.000000
	1.616667	-137.698	0.000000	110	107.779	0.000000
	1.633333	-137.767	0.000000	110	107.78	0.000000
	1.650000	-137.83	0.000000	110	107.781	0.000000
	1.666667	-137.883	0.000000	110	107.78	0.000000
	1.683333	-137.934	0.000000	110	107.78	0.000000
	1.700000	-137.98	0.000000	110	107.78	0.000000
	1.716667	-138.026	0.000000	110	107.78	0.000000
	1.733333	-138.07	0.000000	110	107.78	0.000000
	1.750000	-138.109	0.000000	110	107.78	0.000000
	1.766667	-138.138	0.000000	110	107.781	0.000000
	1.783333	-138.167	0.000000	110	107.781	0.000000
	1.800000	-138.195	0.000000	110	107.781	0.000000
	1.816667	-138.223	0.000000	110	107.781	0.000000
	1.833333	-138.246	0.000000	110	107.781	0.000000
	1.850000	-138.268	0.000000	110	107.781	0.000000
	1.866667	-138.286	0.000000	110	107.781	0.000000
	1.883333	-138.303	0.000000	110	107.781	0.000000
	1.900000	-138.318	0.000000	110	107.781	0.000000
	1.916667	-138.335	0.000000	110	107.782	0.000000
	1.933333	-138.35	0.000000	110	107.782	0.000000
	1.950000	-138.362	0.000000	110	107.781	0.000000
	1.966667	-138.373	0.000000	110	107.781	0.000000
	1.983333	-138.387	0.000000	110	107.78	0.000000
2) DSC Temperature Scan
	2.000000	-138.453	0.000000	109.995	107.78	0.000000
	2.066667	-138.159	-0.295445	109.329	107.645	0.000000
	2.133333	-138.572	0.694247	108.662	107.145	0.000000
[...]
	76.1667	-111.714	3.166944	90.837	87.844	0.000000
	76.3333	-111.691	3.029251	91.67	88.687	0.000000
	76.5	-112.12	2.894507	92.504	89.533	0.000000
	76.6667	-113.525	2.757640	93.337	90.379	0.000000
	76.8333	-116.397	2.621362	94.17	91.227	0.000000
	77	-120.572	2.481427	95.004	92.078	0.000000
	77.1667	-124.481	2.345268	95.837	92.929	0.000000
	77.3333	-127.207	2.204035	96.67	93.777	0.000000
	77.5	-128.923	2.066696	97.504	94.622	0.000000
	77.6667	-129.966	1.928059	98.337	95.467	0.000000
	77.8333	-130.622	1.788832	99.17	96.309	0.000000
	78	-131.067	1.649015	100.004	97.154	0.000000
	78.1667	-131.399	1.504006	100.837	97.996	0.000000
	78.3333	-131.667	1.370207	101.67	98.838	0.000000
	78.5	-131.901	1.225434	102.504	99.682	0.000000
	78.6667	-132.107	1.088449	103.337	100.526	0.000000
	78.8333	-132.305	0.944502	104.17	101.368	0.000000
	79	-132.49	0.796544	105.004	102.212	0.000000
	79.1667	-132.665	0.654013	105.837	103.052	0.000000
	79.3333	-132.843	0.509949	106.67	103.896	0.000000
	79.5	-133.008	0.369070	107.504	104.737	0.000000
	79.6667	-133.171	0.224651	108.337	105.583	0.000000
	79.8333	-133.325	0.080233	109.17	106.425	0.000000
	80	-133.479	-0.065366	110.004	107.265	0.000000
	80.1667	-133.628	-0.207071	110.837	108.109	0.000000
	80.3333	-133.767	-0.353141	111.67	108.952	0.000000
	80.5	-133.906	-0.499802	112.504	109.796	0.000000
	80.6667	-134.027	-0.643276	113.337	110.639	0.000000
	80.8333	-134.144	-0.790999	114.17	111.481	0.000000
	81	-133.876	-0.933883	115.004	112.322	0.000000
	81.1667	-133.758	-1.082195	115.837	113.163	0.000000
	81.3333	-133.779	-1.226378	116.67	114.006	0.000000
	81.5	-133.923	-1.375516	117.504	114.847	0.000000
	81.6667	-134.099	-1.524772	118.337	115.689	0.000000
	81.8333	-134.307	-1.667657	119.17	116.529	0.000000
	82	-134.49	-1.820807	120.004	117.372	0.000000
	82.1667	-134.656	-1.965697	120.837	118.214	0.000000
	82.3333	-134.821	-2.121325	121.67	119.057	0.000000
	82.5	-135.004	-2.261260	122.504	119.899	0.000000
	82.6667	-135.172	-2.417359	123.337	120.74	0.000000
	82.8333	-135.335	-2.565790	124.17	121.583	0.000000
	83	-135.497	-2.717877	125.004	122.424	0.000000
	83.1667	-135.654	-2.869375	125.837	123.265	0.000000
	83.3333	-135.814	-3.018514	126.67	124.106	0.000000
	83.5	-135.979	-3.170955	127.504	124.95	0.000000
	83.6667	-136.131	-3.318796	128.337	125.789	0.000000
	83.8333	-136.285	-3.472299	129.17	126.631	0.000000
	84	-136.435	-3.623207	130.004	127.475	0.000000
	84.1667	-136.586	-3.773761	130.837	128.316	0.000000
	84.3333	-136.74	-3.928327	131.67	129.158	0.000000
	84.5	-136.885	-4.078763	132.504	130	0.000000
	84.6667	-137.035	-4.229081	133.337	130.841	0.000000
	84.8333	-137.179	-4.385063	134.17	131.684	0.000000
	85	-137.32	-4.537740	135.004	132.524	0.000000
	85.1667	-137.471	-4.699621	135.837	133.365	0.000000
	85.3333	-137.612	-4.847462	136.67	134.206	0.000000
	85.5	-137.759	-5.004387	137.504	135.047	0.000000
	85.6667	-137.899	-5.154469	138.337	135.889	0.000000
	85.8333	-138.047	-5.312810	139.17	136.732	0.000000
	86	-138.191	-5.464072	140.004	137.573	0.000000
	86.1667	-138.336	-5.624655	140.837	138.414	0.000000
	86.3333	-138.476	-5.780165	141.67	139.257	0.000000
	86.5	-138.61	-5.936854	142.504	140.098	0.000000
	86.6667	-138.751	-6.094488	143.337	140.94	0.000000
	86.8333	-138.894	-6.244452	144.17	141.781	0.000000
	87	-139.043	-6.400905	145.004	142.622	0.000000
	87.1667	-139.179	-6.561252	145.837	143.463	0.000000
	87.3333	-139.321	-6.724785	146.67	144.308	0.000000
	87.5	-139.456	-6.880059	147.504	145.148	0.000000
	87.6667	-139.605	-7.038872	148.337	145.991	0.000000
	87.8333	-139.75	-7.206652	149.17	146.831	0.000000
	87.9833	-139.88	-7.343402	149.92	147.59	0.000000